 xrayspectrum, 80kV, 17 anode angle with 2.5mmAl total filtration
 74, 0.006,0
0.007,	0
0.008,	0
0.009,	0
0.010,	0
0.011,	0
0.012,	0
0.013,	0.00001
0.014,  0.00006
0.015,  0.00022
0.016,  0.00062
0.017,  0.00139
0.018,  0.00264
0.019,  0.00440
0.020,  0.00660
0.021,  0.00904
0.022,  0.01162
0.023,  0.01424
0.024,  0.01678
0.025,  0.01915
0.026,  0.02130
0.027,  0.02319
0.028,  0.02479
0.029,  0.02610
0.030,  0.02715
0.031,  0.02776
0.032,  0.02811
0.033,  0.02828
0.034,  0.02831
0.035,  0.02820
0.036,  0.02798
0.037,  0.02767
0.038,  0.02727
0.039,  0.02681
0.040,  0.02630
0.041,  0.02566
0.042,  0.02498
0.043,  0.02428
0.044,  0.02358
0.045,  0.02287
0.046,  0.02215
0.047,  0.02144
0.048,  0.02072
0.049,  0.02001
0.050,  0.01930
0.051,  0.01857
0.052,  0.01784
0.053,  0.01712
0.054,  0.01641
0.055,  0.01571
0.056,  0.01502
0.057,  0.01434
0.058,  0.01367
0.059,  0.01805
0.060,  0.02121
0.061,  0.01168
0.062,  0.01102
0.063,  0.01038
0.064,  0.00974
0.065,  0.00911
0.066,  0.00849
0.067,  0.00787
0.068,  0.01037
0.069,  0.00666
0.070,  0.00672
0.071,  0.00533
0.072,  0.00478
0.073,  0.00424
0.074,  0.00370
0.075,  0.00316
0.076,  0.00263
0.077,  0.00209
0.078,  0.00156
0.079,  0.00104
0.080,  0.00052
